Folder: EV_Battery-Health-Checker

Note: README.md
# EV_Battery-Health-Checker

File: ev.csv
Voltage,Current,Temperature,Charge Capacity,Internal Resistance,Age in Cycles,State of Charge,Discharge Time,Charge Time,Fault
3.65,5.2,23,85,0.012,1500,55,45,35,0
3.6,4,22,85,0.012,300,48,80,70,0
4.05,3.6,37,89,0.014,1100,69,115,65,1
3.8,4.9,30,70,0.013,1300,60,50,40,0
4.1,3.5,31,90,0.014,300,62,85,75,0
3.7,4.3,22,80,0.013,800,49,120,70,0
3.95,5.1,31,65,0.015,500,70,55,45,1
3.75,4.8,30,78,0.013,1000,55,90,80,1
3.85,5.4,28,91,0.017,1400,58,125,75,0
4.05,3.8,25,78,0.011,500,75,60,50,0
3.8,5.1,34,88,0.011,600,60,95,85,0
3.95,3.7,29,85,0.011,100,61,130,80,0
3.7,4.5,27,88,0.01,300,50,65,55,0
4,3.9,31,92,0.016,500,66,100,90,0
4,5,20,93,0.016,600,65,135,85,1
3.85,5.3,22,80,0.017,700,58,70,60,1
3.65,4.4,27,84,0.015,900,57,105,95,1
3.75,4.6,21,81,0.015,200,54,140,90,0
3.9,6,29,74,0.018,100,52,75,65,1
3.9,5.2,20,77,0.012,300,53,110,60,0
3.65,5.3,30,90,0.012,300,52,45,35,0
3.6,4,35,82,0.012,500,48,80,70,0
4.05,3.6,20,89,0.014,700,69,115,65,1
3.8,4.9,21,70,0.013,600,60,50,40,0
4.1,3.5,33,90,0.014,800,62,85,75,0
3.7,4.3,25,80,0.013,100,49,120,70,0
3.95,5.1,29,65,0.015,100,70,55,45,1
3.75,4.8,31,78,0.013,300,55,90,80,1
3.85,5.4,25,91,0.017,500,58,125,75,0
4.05,3.8,31,78,0.011,400,75,60,50,0
3.8,5.1,20,88,0.011,600,60,95,85,0
3.95,3.7,28,85,0.011,800,61,130,80,0
3.7,4.5,35,88,0.01,300,50,65,55,0
4,3.9,34,92,0.016,500,66,100,90,0
4,5,34,93,0.016,300,65,135,85,1
3.85,5.3,25,80,0.017,200,58,70,60,1
3.65,4.4,21,84,0.015,400,57,105,95,1
3.75,4.6,31,81,0.015,500,54,140,90,0
3.9,6,25,74,0.018,600,52,75,65,1
3.9,5.2,30,77,0.012,800,53,110,60,0
3.65,5.3,27,90,0.012,300,52,45,35,0
3.6,4,35,82,0.012,500,48,80,70,0
4.05,3.6,20,89,0.014,700,69,115,65,1
3.8,4.9,22,70,0.013,200,60,50,40,0
4.1,3.5,30,90,0.014,400,62,85,75,0
3.7,4.3,33,80,0.013,600,49,120,70,0
3.95,5.1,29,65,0.015,100,70,55,45,1
3.75,4.8,31,78,0.013,300,55,90,80,1
3.85,5.4,33,91,0.017,1000,58,125,75,0
4.05,3.8,34,78,0.011,900,75,60,50,0
3.8,5.1,28,88,0.011,200,60,95,85,0
3.95,3.7,28,85,0.011,800,61,130,80,0
3.7,4.5,35,88,0.01,800,50,65,55,0
4,3.9,34,92,0.016,100,66,100,90,0
4,5,20,93,0.016,600,65,135,85,1
3.85,5.3,20,80,0.017,700,58,70,60,1
3.65,4.4,25,84,0.015,900,57,105,95,1
3.75,4.6,31,81,0.015,500,54,140,90,0
3.9,6,25,74,0.018,600,52,75,65,1
3.9,5.2,30,77,0.012,800,53,110,60,0
3.65,5.3,27,90,0.012,300,52,45,35,0
3.6,4,35,82,0.012,500,48,80,70,0
4.05,3.6,20,89,0.014,700,69,115,65,1
3.8,4.9,22,70,0.013,200,60,50,40,0
4.1,3.5,30,90,0.014,400,62,85,75,0
3.7,4.3,33,80,0.013,600,49,120,70,0
3.95,5.1,29,65,0.015,100,70,55,45,1
3.75,4.8,31,78,0.013,300,55,90,80,1
3.85,5.4,33,91,0.017,1000,58,125,75,0
4.05,3.8,34,78,0.011,900,75,60,50,0
3.8,5.1,28,88,0.011,200,60,95,85,0
3.95,3.7,28,85,0.011,800,61,130,80,0
3.7,4.5,35,88,0.01,800,50,65,55,0
4,3.9,34,92,0.016,100,66,100,90,0
3.7,4.5,35,88,0.01,800,50,65,55,0
4,3.9,34,92,0.016,100,66,100,90,0
4,5,20,93,0.016,600,65,135,85,1
3.85,5.3,20,80,0.017,700,58,70,60,1
3.65,4.4,25,84,0.015,900,57,105,95,1
3.75,4.6,31,81,0.015,500,54,140,90,0
3.9,6,25,74,0.018,600,52,75,65,1
3.9,5.2,30,77,0.012,800,53,110,60,0
3.65,5.3,27,90,0.012,300,52,45,35,0
3.6,4,35,82,0.012,500,48,80,70,0
4.05,3.6,20,89,0.014,700,69,115,65,1
3.8,4.9,22,70,0.013,200,60,50,40,0
4.1,3.5,30,90,0.014,400,62,85,75,0
3.7,4.3,33,80,0.013,600,49,120,70,0
3.95,5.1,29,65,0.015,100,70,55,45,1
3.75,4.8,31,78,0.013,300,55,90,80,1
3.85,5.4,33,91,0.017,1000,58,125,75,0
4.05,3.8,34,78,0.011,900,75,60,50,0
3.8,5.1,28,88,0.011,200,60,95,85,0
3.95,3.7,28,85,0.011,800,61,130,80,0
3.7,4.5,35,88,0.01,800,50,65,55,0
4,3.9,34,92,0.016,100,66,100,90,0
4,5,20,93,0.016,600,65,135,85,1
3.85,5.3,20,80,0.017,700,58,70,60,1
3.65,4.4,25,84,0.015,900,57,105,95,1
3.75,4.6,31,81,0.015,500,54,140,90,0
3.9,6,25,74,0.018,600,52,75,65,1
3.9,5.2,30,77,0.012,800,53,110,60,0
3.65,5.3,27,90,0.012,300,52,45,35,0
3.6,4,35,82,0.012,500,48,80,70,0
4.05,3.6,20,89,0.014,700,69,115,65,1
3.8,4.9,22,70,0.013,200,60,50,40,0
4.1,3.5,30,90,0.014,400,62,85,75,0
3.7,4.3,33,80,0.013,600,49,120,70,0
3.95,5.1,29,65,0.015,100,70,55,45,1
3.75,4.8,31,78,0.013,300,55,90,80,1
3.85,5.4,33,91,0.017,1000,58,125,75,0
4.05,3.8,34,78,0.011,900,75,60,50,0
3.8,5.1,28,88,0.011,200,60,95,85,0
3.95,3.7,28,85,0.011,800,61,130,80,0
3.7,4.5,35,88,0.01,800,50,65,55,0
4,3.9,34,92,0.016,100,66,100,90,0
4,5,20,93,0.016,600,65,135,85,1
3.85,5.3,20,80,0.017,700,58,70,60,1
3.65,4.4,25,84,0.015,900,57,105,95,1
3.75,4.6,31,81,0.015,500,54,140,90,0
3.9,6,25,74,0.018,600,52,75,65,1
3.9,5.2,30,77,0.012,800,53,110,60,0
3.65,5.3,27,90,0.012,300,52,45,35,0
3.6,4,35,82,0.012,500,48,80,70,0
4.05,3.6,20,89,0.014,700,69,115,65,1
3.8,4.9,22,70,0.013,200,60,50,40,0
4.1,3.5,30,90,0.014,400,62,85,75,0
4.05,3.6,20,89,0.014,700,69,115,65,1
3.8,4.9,22,70,0.013,200,60,50,40,0
4.1,3.5,30,90,0.014,400,62,85,75,0
3.7,4.3,33,80,0.013,600,49,120,70,0
3.95,5.1,29,65,0.015,100,70,55,45,1
3.75,4.8,31,78,0.013,300,55,90,80,1
3.85,5.4,33,91,0.017,1000,58,125,75,0
4.05,3.8,34,78,0.011,900,75,60,50,0
3.8,5.1,28,88,0.011,200,60,95,85,0
3.95,3.7,28,85,0.011,800,61,130,80,0
3.7,4.5,35,88,0.01,800,50,65,55,0
4,3.9,34,92,0.016,100,66,100,90,0
4,5,20,93,0.016,600,65,135,85,1
3.85,5.3,20,80,0.017,700,58,70,60,1
3.65,4.4,25,84,0.015,900,57,105,95,1
3.75,4.6,31,81,0.015,500,54,140,90,0
3.9,6,25,74,0.018,600,52,75,65,1
3.9,5.2,30,77,0.012,800,53,110,60,0
3.65,5.3,27,90,0.012,300,52,45,35,0
3.6,4,35,82,0.012,500,48,80,70,0
4.05,3.6,20,89,0.014,700,69,115,65,1
3.8,4.9,22,70,0.013,200,60,50,40,0
4.1,3.5,30,90,0.014,400,62,85,75,0
3.7,4.3,33,80,0.013,600,49,120,70,0
3.95,5.1,29,65,0.015,100,70,55,45,1
3.75,4.8,31,78,0.013,300,55,90,80,1
3.85,5.4,33,91,0.017,1000,58,125,75,0
4.05,3.8,34,78,0.011,900,75,60,50,0
3.8,5.1,28,88,0.011,200,60,95,85,0
3.95,3.7,28,85,0.011,800,61,130,80,0
3.7,4.5,35,88,0.01,800,50,65,55,0
4.05,5,28,86,0.014,34,0.7,175,1,0
3.85,4.8,30,86,0.015,41,0.8,210,0.3,1
3.85,5,30,86,0.012,48,0.8,245,0.6,0
3.8,4.8,31,86,0.013,51,0.8,315,1,0
3.95,5.1,30,86,0.014,58,0.1,350,0.3,0
3.75,5.1,33,89,0.014,65,0.3,385,0.9,1
3.9,5,33,87,0.013,72,0.4,420,0.9,0
3.7,4.9,29,86,0.012,79,0.5,455,0.2,0
3.85,4.9,29,87,0.012,86,0.6,490,0.5,1
4,4.7,30,87,0.013,93,0.6,525,0.8,0
3.8,4.8,30,88,0.014,100,0.7,560,1,0
3.95,5,32,87,0.013,107,0.8,595,0.3,1
3.75,5.1,33,89,0.012,114,0.1,630,0.6,0
3.9,5,33,87,0.013,121,0.2,665,0.9,0
3.75,5.1,29,88,0.012,128,0.3,700,0.2,1
3.85,4.9,29,87,0.015,135,0.4,735,0.5,0
4,4.7,30,87,0.014,142,0.5,770,0.8,0
3.8,4.8,30,88,0.012,149,0.6,805,1,1
3.95,5,33,87,0.013,156,0.7,840,0.3,0
3.75,5.1,31,86,0.012,163,0.8,875,0.6,0
3.9,5,31,85,0.013,170,0.1,910,0.9,1
4.05,5,29,86,0.011,177,0.2,945,0.2,0
4,5.2,30,86,0.014,184,0.3,980,0.5,0
3.9,5,28,85,0.013,191,0.4,1015,0.8,1
3.7,4.9,29,86,0.012,198,0.5,1050,0.1,0
3.85,4.9,31,89,0.014,205,0.6,1085,0.4,0
3.75,4.7,31,87,0.015,212,0.7,1120,0.7,1
3.8,4.8,32,89,0.014,219,0.8,1155,1,0
3.95,5.1,32,87,0.013,226,0.1,1190,0.3,1
3.75,5.1,28,86,0.013,233,0.2,1225,0.6,0
3.8,4.8,32,89,0.014,240,0.3,1260,0.9,0
3.95,5.1,32,87,0.013,247,0.4,1295,0.2,1
3.75,5.1,28,86,0.013,254,0.5,1330,0.5,0
3.8,4.8,32,89,0.014,261,0.6,1365,0.7,0
3.95,5.1,32,87,0.013,268,0.7,1400,1,1
3.75,5.1,28,86,0.013,275,0.8,1435,0.3,0
3.8,4.8,32,89,0.014,282,0.1,1470,0.5,0
3.95,5.1,32,87,0.013,289,0.2,1505,0.8,1
3.75,5.1,28,86,0.013,296,0.3,1540,0.1,0
3.8,4.8,32,89,0.014,303,0.4,1575,0.4,0
3.95,5.1,32,87,0.013,310,0.5,1610,0.7,1
3.75,5.1,28,86,0.013,317,0.6,1645,1,0
3.8,4.8,32,89,0.014,324,0.7,1680,0.3,0
3.95,5.1,32,87,0.013,331,0.8,1715,0.6,1
3.75,5.1,28,86,0.013,338,0.1,1750,0.9,0
3.8,4.8,32,89,0.014,345,0.2,1785,0.2,0
3.85,4.9,29,86,0.015,352,0.3,1820,0.4,1
4,4.7,30,87,0.014,359,0.4,1855,0.7,0
3.8,4.8,30,88,0.012,366,0.5,1890,1,0
3.85,4.9,29,86,0.015,373,0.6,1925,0.3,1
4,4.7,30,87,0.014,380,0.7,1960,0.6,0
3.8,4.8,30,88,0.012,387,0.8,1995,0.9,0
3.85,4.9,29,86,0.015,394,0.1,2030,0.2,1
4,4.7,30,87,0.014,401,0.2,2065,0.5,0
3.8,4.8,30,88,0.012,408,0.3,2100,0.8,0
3.85,4.9,29,86,0.015,415,0.4,2135,0.1,1
4,4.7,30,87,0.014,422,0.5,2170,0.4,0
3.8,4.8,30,88,0.012,429,0.6,2205,0.7,0
3.85,4.9,29,86,0.015,436,0.7,2240,1,1
4,4.7,30,87,0.014,443,0.8,2275,0.3,0
3.8,4.8,30,88,0.012,450,0.1,2310,0.6,0
3.85,4.9,29,86,0.015,457,0.2,2345,0.9,1
4,4.7,30,87,0.014,464,0.3,2380,0.2,0
3.8,4.8,30,88,0.012,471,0.4,2415,0.5,0
3.85,4.9,29,86,0.015,478,0.5,2450,0.8,1
4,4.7,30,87,0.014,485,0.6,2485,0.1,0
3.8,4.8,30,88,0.012,492,0.7,2520,0.4,0
3.85,4.9,29,86,0.015,499,0.8,2555,0.7,1
4,4.7,30,87,0.014,506,0.1,2590,1,0
3.8,4.8,30,88,0.012,513,0.2,2625,0.3,0
3.85,4.9,29,86,0.015,520,0.3,2660,0.6,1
4,4.7,30,87,0.014,527,0.4,2695,0.9,0
3.8,4.8,30,88,0.012,534,0.5,2730,0.2,0
3.85,4.9,29,86,0.015,541,0.6,2765,0.5,1
4,4.7,30,87,0.014,548,0.7,2800,0.8,0
3.8,4.8,30,88,0.012,555,0.8,2835,0.1,0
3.85,4.9,29,86,0.015,562,0.1,2870,0.4,1
4,4.7,30,87,0.014,569,0.2,2905,0.7,0
3.8,4.8,30,88,0.012,576,0.3,2940,1,0
3.85,4.9,29,86,0.015,583,0.4,2975,0.3,1
4,4.7,30,87,0.014,590,0.5,3010,0.6,0
3.8,4.8,30,88,0.012,597,0.6,3045,0.9,0
3.85,4.9,29,86,0.015,604,0.7,3080,0.2,1
4.05,5,29,87,0.015,608,0.3,3100,0.8,0

File: old-ev.csv
Voltage,Current,Temperature,Charge Capacity,Internal Resistance,Age in Cycles,State of Charge,Discharge Time,Charge Time,Fault
3.65,5.2,23,85,0.012,1500,55,45,35,0
3.7,4.5,27,95,0.01,500,50,65,55,0
4.1,3.5,33,90,0.014,900,62,85,75,0
3.65,4.4,26,84,0.015,100,57,105,95,1
3.85,5.4,31,91,0.017,1500,58,125,75,0
3.65,5.3,35,90,0.012,1400,52,45,35,0
3.7,4.5,34,88,0.01,1000,50,65,55,0
4.1,3.5,31,90,0.014,300,62,85,75,0
3.65,4.4,27,84,0.015,500,57,105,95,1
3.85,5.4,29,91,0.017,1100,58,125,75,0
3.65,5.3,30,90,0.012,700,52,45,35,0
3.7,4.5,35,88,0.01,200,50,65,55,0
4.1,3.5,32,90,0.014,1300,62,85,75,0
3.65,4.4,27,84,0.015,600,57,105,95,1
3.85,5.4,28,91,0.017,1400,58,125,75,0
3.65,5.3,22,90,0.012,800,52,45,35,0
3.7,4.5,26,88,0.01,400,50,65,55,0
4.1,3.5,35,90,0.014,1200,62,85,75,0
3.65,4.4,21,84,0.015,400,57,105,95,1
3.85,5.4,22,91,0.017,200,58,125,75,0
3.65,5.3,31,90,0.012,700,52,45,35,0
3.7,4.5,27,88,0.01,300,50,65,55,0
4.1,3.5,29,90,0.014,800,62,85,75,0
3.65,4.4,28,84,0.015,400,57,105,95,1
3.85,5.4,29,91,0.017,1000,58,125,75,0
3.65,5.3,34,90,0.012,300,52,45,35,0
3.7,4.5,26,88,0.01,800,50,65,55,0
4.1,3.5,30,90,0.014,400,62,85,75,0
3.65,4.4,27,84,0.015,900,57,105,95,1
3.85,5.4,20,91,0.017,500,58,125,75,0
3.65,5.3,31,90,0.012,100,52,45,35,0
3.7,4.5,30,88,0.01,300,50,65,55,0
4.1,3.5,27,90,0.014,800,62,85,75,0
3.65,4.4,29,84,0.015,400,57,105,95,1
3.85,5.4,31,91,0.017,1000,58,125,75,0
3.65,5.3,30,90,0.012,300,52,45,35,0
3.7,4.5,29,88,0.01,800,50,65,55,0
4.1,3.5,33,90,0.014,400,62,85,75,0
3.65,4.4,28,84,0.015,900,57,105,95,1
3.85,5.4,35,91,0.017,500,58,125,75,0
3.65,5.3,33,90,0.012,100,52,45,35,0
3.7,4.5,31,88,0.01,300,50,65,55,0
4.1,3.5,33,90,0.014,800,62,85,75,0
3.65,4.4,29,84,0.015,400,57,105,95,1
3.85,5.4,34,91,0.017,1000,58,125,75,0
3.65,5.3,27,90,0.012,300,52,45,35,0
3.7,4.5,35,88,0.01,800,50,65,55,0
4.1,3.5,30,90,0.014,400,62,85,75,0
3.65,4.4,25,84,0.015,900,57,105,95,1
3.85,5.4,25,91,0.017,500,58,125,75,0
3.65,5.3,28,90,0.012,100,52,45,35,0
3.7,4.5,34,88,0.01,300,50,65,55,0
4.1,3.5,22,90,0.014,800,62,85,75,0
3.65,4.4,21,84,0.015,400,57,105,95,1
3.85,5.4,33,91,0.017,1000,58,125,75,0
3.65,5.3,31,90,0.012,100,52,45,35,0
3.7,4.5,35,88,0.01,300,50,65,55,0
4.1,3.5,30,90,0.014,800,62,85,75,0
3.65,4.4,25,84,0.015,400,57,105,95,1
3.85,5.4,25,91,0.017,500,58,125,75,0
3.65,5.3,28,90,0.012,100,52,45,35,0
3.7,4.5,34,88,0.01,300,50,65,55,0
4.1,3.5,22,90,0.014,800,62,85,75,0
3.65,4.4,21,84,0.015,400,57,105,95,1
3.85,5.4,33,91,0.017,1000,58,125,75,0
3.65,5.3,27,90,0.012,300,52,45,35,0
3.7,4.5,35,88,0.01,800,50,65,55,0
4.1,3.5,30,90,0.014,400,62,85,75,0
3.65,4.4,25,84,0.015,900,57,105,95,1
3.85,5.4,33,91,0.017,1000,58,125,75,0
3.65,5.3,27,90,0.012,300,52,45,35,0
3.7,4.5,35,88,0.01,800,50,65,55,0
4.1,3.5,30,90,0.014,400,62,85,75,0
3.65,4.4,25,84,0.015,900,57,105,95,1
3.85,5.4,33,91,0.017,1000,58,125,75,0
3.65,5.3,27,90,0.012,300,52,45,35,0
3.7,4.5,35,88,0.01,800,50,65,55,0
4.1,3.5,30,90,0.014,400,62,85,75,0
3.65,4.4,25,84,0.015,900,57,105,95,1
3.85,5.4,33,91,0.017,1000,58,125,75,0
3.65,5.3,27,90,0.012,300,52,45,35,0
3.7,4.5,35,88,0.01,800,50,65,55,0
4.1,3.5,30,90,0.014,400,62,85,75,0
3.65,4.4,25,84,0.015,900,57,105,95,1
3.85,5.4,33,91,0.017,1000,58,125,75,0
3.65,5.3,27,90,0.012,300,52,45,35,0
3.7,4.5,35,88,0.01,800,50,65,55,0
4.1,3.5,30,90,0.014,400,62,85,75,0
3.65,4.4,25,84,0.015,900,57,105,95,1
3.85,5.4,33,91,0.017,1000,58,125,75,0
3.65,5.3,27,90,0.012,300,52,45,35,0
3.7,4.5,35,88,0.01,800,50,65,55,0
4.1,3.5,30,90,0.014,400,62,85,75,0
3.65,4.4,25,84,0.015,900,57,105,95,1
3.85,5.4,33,91,0.017,1000,58,125,75,0
3.65,5.3,27,90,0.012,300,52,45,35,0
3.7,4.5,35,88,0.01,800,50,65,55,0
4.1,3.5,30,90,0.014,400,62,85,75,0
3.65,4.4,25,84,0.015,900,57,105,95,1
3.85,5.4,33,91,0.017,1000,58,125,75,0
3.65,5.3,27,90,0.012,300,52,45,35,0
3.7,4.5,35,88,0.01,800,50,65,55,0
4.1,3.5,30,90,0.014,400,62,85,75,0
3.65,4.4,25,84,0.015,900,57,105,95,1
3.85,5.4,33,91,0.017,1000,58,125,75,0
3.65,5.3,27,90,0.012,300,52,45,35,0
3.7,4.5,35,88,0.01,800,50,65,55,0
4.1,3.5,30,90,0.014,400,62,85,75,0
3.65,4.4,25,84,0.015,900,57,105,95,1
3.85,5.4,33,91,0.017,1000,58,125,75,0
3.65,5.3,27,90,0.012,300,52,45,35,0
3.7,4.5,35,88,0.01,800,50,65,55,0
4.1,3.5,30,90,0.014,400,62,85,75,0
3.65,4.4,25,84,0.015,900,57,105,95,1
3.85,5.4,33,91,0.017,1000,58,125,75,0
3.65,5.3,27,90,0.012,300,52,45,35,0
3.7,4.5,35,88,0.01,800,50,65,55,0
4.1,3.5,30,90,0.014,400,62,85,75,0
3.65,4.4,25,84,0.015,900,57,105,95,1
3.85,5.4,33,91,0.017,1000,58,125,75,0
3.65,5.3,27,90,0.012,300,52,45,35,0
3.7,4.5,35,88,0.01,800,50,65,55,0
4.1,3.5,30,90,0.014,400,62,85,75,0
3.65,4.4,25,84,0.015,900,57,105,95,1
3.85,5.4,33,91,0.017,1000,58,125,75,0
3.65,5.3,27,90,0.012,300,52,45,35,0
3.7,4.5,35,88,0.01,800,50,65,55,0
4.1,3.5,30,90,0.014,400,62,85,75,0
4,5,20,93,0.016,600,65,135,85,1
3.95,5.1,29,65,0.015,100,70,55,45,1
3.9,6,25,74,0.018,600,52,75,65,1
3.8,5.1,28,88,0.011,200,60,95,85,0
4.05,3.6,20,89,0.014,700,69,115,65,1
4,5,20,93,0.016,600,65,135,85,1
3.95,5.1,29,65,0.015,100,70,55,45,1
3.9,6,25,74,0.018,600,52,75,65,1
3.8,5.1,28,88,0.011,200,60,95,85,0
4.05,3.6,20,89,0.014,700,69,115,65,1
4,5,20,93,0.016,600,65,135,85,1
3.95,5.1,29,65,0.015,100,70,55,45,1
3.9,6,25,74,0.018,600,52,75,65,1
3.8,5.1,28,88,0.011,200,60,95,85,0
4.05,3.6,20,89,0.014,700,69,115,65,1
4,5,20,93,0.016,600,65,135,85,1
3.95,5.1,29,65,0.015,100,70,55,45,1
3.9,6,25,74,0.018,600,52,75,65,1
3.8,5.1,28,88,0.011,200,60,95,85,0
4.05,3.6,20,89,0.014,700,69,115,65,1
4,5,20,93,0.016,600,65,135,85,1
3.95,5.1,29,65,0.015,100,70,55,45,1
3.9,6,25,74,0.018,600,52,75,65,1
3.8,5.1,28,88,0.011,200,60,95,85,0
4.05,3.6,20,89,0.014,700,69,115,65,1
4,5,20,93,0.016,600,65,135,85,1
3.95,5.1,29,65,0.015,100,70,55,45,1
3.9,6,25,74,0.018,600,52,75,65,1
3.8,5.1,28,88,0.011,200,60,95,85,0
4.05,3.6,20,89,0.014,700,69,115,65,1
4,5,20,93,0.016,600,65,135,85,1
3.95,5.1,29,65,0.015,100,70,55,45,1
3.9,6,25,74,0.018,600,52,75,65,1
3.8,5.1,28,88,0.011,200,60,95,85,0
4.05,3.6,20,89,0.014,700,69,115,65,1
4,5,20,93,0.016,600,65,135,85,1
3.95,5.1,29,65,0.015,100,70,55,45,1
3.9,6,25,74,0.018,600,52,75,65,1
3.8,5.1,28,88,0.011,200,60,95,85,0
4.05,3.6,20,89,0.014,700,69,115,65,1
4,5,20,93,0.016,600,65,135,85,1
3.95,5.1,29,65,0.015,100,70,55,45,1
3.9,6,25,74,0.018,600,52,75,65,1
3.8,5.1,28,88,0.011,200,60,95,85,0
4.05,3.6,20,89,0.014,700,69,115,65,1
4,5,20,93,0.016,600,65,135,85,1
3.95,5.1,29,65,0.015,100,70,55,45,1
3.9,6,25,74,0.018,600,52,75,65,1
3.8,5.1,28,88,0.011,200,60,95,85,0
4.05,3.6,20,89,0.014,700,69,115,65,1
4,5,20,93,0.016,600,65,135,85,1
3.95,5.1,29,65,0.015,100,70,55,45,1
3.9,6,25,74,0.018,600,52,75,65,1
3.8,5.1,28,88,0.011,200,60,95,85,0
4.05,3.6,20,89,0.014,700,69,115,65,1
4,5,20,93,0.016,600,65,135,85,1
3.95,5.1,29,65,0.015,100,70,55,45,1
3.9,6,25,74,0.018,600,52,75,65,1
3.8,5.1,28,88,0.011,200,60,95,85,0
4.05,3.6,20,89,0.014,700,69,115,65,1
4,5,20,93,0.016,600,65,135,85,1
3.95,5.1,29,65,0.015,100,70,55,45,1
3.9,6,25,74,0.018,600,52,75,65,1
3.8,5.1,28,88,0.011,200,60,95,85,0
4.05,3.6,20,89,0.014,700,69,115,65,1
4,5,20,93,0.016,600,65,135,85,1
3.95,5.1,29,65,0.015,100,70,55,45,1
3.9,6,25,74,0.018,600,52,75,65,1
3.8,5.1,28,88,0.011,200,60,95,85,0
4.05,3.6,20,89,0.014,700,69,115,65,1
4,5,20,93,0.016,600,65,135,85,1
3.95,5.1,29,65,0.015,100,70,55,45,1
3.9,6,25,74,0.018,600,52,75,65,1
3.8,5.1,28,88,0.011,200,60,95,85,0
4.05,3.6,20,89,0.014,700,69,115,65,1
4,5,20,93,0.016,600,65,135,85,1
3.95,5.1,29,65,0.015,100,70,55,45,1
3.9,6,25,74,0.018,600,52,75,65,1
3.8,5.1,28,88,0.011,200,60,95,85,0
4.05,3.6,20,89,0.014,700,69,115,65,1
4,5,20,93,0.016,600,65,135,85,1
3.95,5.1,29,65,0.015,100,70,55,45,1
3.9,6,25,74,0.018,600,52,75,65,1
3.8,5.1,28,88,0.011,200,60,95,85,0
4.05,3.6,20,89,0.014,700,69,115,65,1
4,5,20,93,0.016,600,65,135,85,1
3.95,5.1,29,65,0.015,100,70,55,45,1
3.9,6,25,74,0.018,600,52,75,65,1
3.8,5.1,28,88,0.011,200,60,95,85,0
4.05,3.6,20,89,0.014,700,69,115,65,1
4,5,20,93,0.016,600,65,135,85,1
3.95,5.1,29,65,0.015,100,70,55,45,1
3.9,6,25,74,0.018,600,52,75,65,1
3.75,4.8,31,78,0.013,300,55,90,80,1
3.9,5.2,30,77,0.012,800,53,110,60,0
3.95,3.7,28,85,0.011,800,61,130,80,0
3.8,4.9,22,70,0.013,200,60,50,40,0
3.85,5.3,20,80,0.017,700,58,70,60,1
3.75,4.8,31,78,0.013,300,55,90,80,1
3.9,5.2,30,77,0.012,800,53,110,60,0
3.95,3.7,28,85,0.011,800,61,130,80,0
3.8,4.9,22,70,0.013,200,60,50,40,0
3.85,5.3,20,80,0.017,700,58,70,60,1
3.75,4.8,31,78,0.013,300,55,90,80,1
3.9,5.2,30,77,0.012,800,53,110,60,0
3.95,3.7,28,85,0.011,800,61,130,80,0
3.8,4.9,22,70,0.013,200,60,50,40,0
3.85,5.3,20,80,0.017,700,58,70,60,1
3.75,4.8,31,78,0.013,300,55,90,80,1
3.9,5.2,30,77,0.012,800,53,110,60,0
3.95,3.7,28,85,0.011,800,61,130,80,0
3.8,4.9,22,70,0.013,200,60,50,40,0
3.85,5.3,20,80,0.017,700,58,70,60,1
3.75,4.8,31,78,0.013,300,55,90,80,1
3.9,5.2,30,77,0.012,800,53,110,60,0
3.95,3.7,28,85,0.011,800,61,130,80,0
3.8,4.9,22,70,0.013,200,60,50,40,0
3.85,5.3,20,80,0.017,700,58,70,60,1
3.75,4.8,31,78,0.013,300,55,90,80,1
3.9,5.2,30,77,0.012,800,53,110,60,0
3.95,3.7,28,85,0.011,800,61,130,80,0
3.8,4.9,22,70,0.013,200,60,50,40,0
3.85,5.3,20,80,0.017,700,58,70,60,1
3.75,4.8,31,78,0.013,300,55,90,80,1
3.9,5.2,30,77,0.012,800,53,110,60,0
3.95,3.7,28,85,0.011,800,61,130,80,0
3.8,4.9,22,70,0.013,200,60,50,40,0
3.85,5.3,20,80,0.017,700,58,70,60,1
3.75,4.8,31,78,0.013,300,55,90,80,1
3.9,5.2,30,77,0.012,800,53,110,60,0
3.95,3.7,28,85,0.011,800,61,130,80,0
3.8,4.9,22,70,0.013,200,60,50,40,0
3.85,5.3,20,80,0.017,700,58,70,60,1
3.75,4.8,31,78,0.013,300,55,90,80,1
3.9,5.2,30,77,0.012,800,53,110,60,0
3.95,3.7,28,85,0.011,800,61,130,80,0
3.8,4.9,22,70,0.013,200,60,50,40,0
3.85,5.3,20,80,0.017,700,58,70,60,1
3.75,4.8,31,78,0.013,300,55,90,80,1
3.9,5.2,30,77,0.012,800,53,110,60,0
3.95,3.7,28,85,0.011,800,61,130,80,0
3.8,4.9,22,70,0.013,200,60,50,40,0
3.85,5.3,20,80,0.017,700,58,70,60,1
3.75,4.8,31,78,0.013,300,55,90,80,1
3.9,5.2,30,77,0.012,800,53,110,60,0
3.95,3.7,28,85,0.011,800,61,130,80,0
3.8,4.9,22,70,0.013,200,60,50,40,0
3.85,5.3,20,80,0.017,700,58,70,60,1
4.1,3.5,30,90,0.014,400,62,85,75,0